#LICA Lamps Spectra Database
#Website 1: https://guaix.fis.ucm.es/lamps_spectra
#Website 2: http://carlostapia.es/lamparas/lamps.html
#Latest update: 2017/12/15
#Tester: Carlos Eugenio Tapia Ayuga
#Correct for Electrical Dark: Yes (JAZA2310)
#Correct for Detector Non-linearity: Yes (JAZA2310)
#Correct for Flux: Yes
#Start wavelength (nm): 300
#End wavelength (nm): 900
#Steps (nm):	1
#Locus: D65 sRGB Gamma 1 CIE1931
#XYZ coordinates: 0.2254	0.2438	0.2558
#xyY coordinates: 0.3109	0.3363	0.2438
#sRGB: 58	64	59
#CCT Lindbloom (K):	6545
#CCT McCamy (K):	6550
#CCT Hernández-Andrés (K):	6538
#Melatonin: 0.985
#Chlorophyll a: 0.563
#Chlorophyll b: 0.949
#Beta Carotene: 0.566
#Manufacturer: Unknown
#Luminance manufacturer: Unknown
#Other data:
#Begin Processed Spectral Data
W	S
475.000000	0.452024
476.000000	0.390864
477.000000	0.452064
478.000000	0.538104
479.000000	0.558806
480.000000	0.531816
481.000000	0.532981
482.000000	0.608382
483.000000	0.618560
484.000000	0.517314
485.000000	0.456798
486.000000	0.426193
487.000000	0.425338
488.000000	0.487341
489.000000	0.515232
490.000000	0.508211
491.000000	0.479590
492.000000	0.493718
493.000000	0.439574
494.000000	0.432692
495.000000	0.435755
496.000000	0.419816
497.000000	0.383031
498.000000	0.367480
499.000000	0.379362
500.000000	0.423832
501.000000	0.435550
502.000000	0.441718
503.000000	0.481936
504.000000	0.533602
505.000000	0.585049
506.000000	0.547417
507.000000	0.497184
508.000000	0.415600
509.000000	0.358271
510.000000	0.387710
511.000000	0.463660
512.000000	0.552734
513.000000	0.530882
514.000000	0.473431
515.000000	0.457186
516.000000	0.514198
517.000000	0.506233
518.000000	0.453405
519.000000	0.432026
520.000000	0.416727
521.000000	0.387261
522.000000	0.366283
523.000000	0.401413
524.000000	0.380532
525.000000	0.322140
526.000000	0.390405
527.000000	0.453604
528.000000	0.455668
529.000000	0.394098
530.000000	0.407584
531.000000	0.446462
532.000000	0.475824
533.000000	0.464056
534.000000	0.623742
535.000000	1.437064
536.000000	2.008102
537.000000	1.642442
538.000000	1.199027
539.000000	0.968195
540.000000	0.761485
541.000000	0.583417
542.000000	0.536337
543.000000	0.476857
544.000000	0.342323
545.000000	0.333466
546.000000	0.485549
547.000000	0.461512
548.000000	0.359719
549.000000	0.310273
550.000000	0.356128
551.000000	0.364974
552.000000	0.310801
553.000000	0.321116
554.000000	0.352236
555.000000	0.384502
556.000000	0.372950
557.000000	0.355450
558.000000	0.368684
559.000000	0.351337
560.000000	0.323784
561.000000	0.359986
562.000000	0.348658
563.000000	0.322847
564.000000	0.387361
565.000000	0.430864
566.000000	0.390519
567.000000	0.363614
568.000000	0.344235
569.000000	0.331190
570.000000	0.342282
571.000000	0.372502
572.000000	0.425764
573.000000	0.410360
574.000000	0.392090
575.000000	0.422306
576.000000	0.472115
577.000000	0.447536
578.000000	0.362247
579.000000	0.357935
580.000000	0.378182
581.000000	0.402906
582.000000	0.361092
583.000000	0.326149
584.000000	0.326449
585.000000	0.338233
586.000000	0.340854
587.000000	0.336262
588.000000	0.328020
589.000000	0.348937
590.000000	0.349775
591.000000	0.340794
592.000000	0.354555
593.000000	0.371285
594.000000	0.414179
595.000000	0.430969
596.000000	0.401973
597.000000	0.463009
598.000000	0.529667
599.000000	0.571843
600.000000	0.522098
601.000000	0.538060
602.000000	0.507176
603.000000	0.470971
604.000000	0.424714
605.000000	0.397143
606.000000	0.392643
607.000000	0.384668
608.000000	0.424265
609.000000	0.528402
610.000000	0.497166
611.000000	0.475617
612.000000	0.448085
613.000000	0.440550
614.000000	0.394482
615.000000	0.403301
616.000000	0.452433
617.000000	0.522596
618.000000	0.481103
619.000000	0.443272
620.000000	0.431383
621.000000	0.424967
622.000000	0.396268
623.000000	0.363893
624.000000	0.341426
625.000000	0.340503
626.000000	0.501251
627.000000	0.486300
628.000000	0.384812
629.000000	0.309888
630.000000	0.308313
631.000000	0.306567
632.000000	0.310151
633.000000	0.354939
634.000000	0.373099
635.000000	0.365060
636.000000	0.337302
637.000000	0.320600
638.000000	0.363337
639.000000	0.360898
640.000000	0.342885
641.000000	0.330448
642.000000	0.363138
643.000000	0.375078
644.000000	0.364407
645.000000	0.319168
646.000000	0.352149
647.000000	0.326000
648.000000	0.310186
649.000000	0.330366
650.000000	0.305780
651.000000	0.284289
652.000000	0.272886
653.000000	0.284071
654.000000	0.287696
655.000000	0.358523
656.000000	0.375057
657.000000	0.338275
658.000000	0.393987
659.000000	0.460068
660.000000	0.400554
661.000000	0.320552
662.000000	0.264180
663.000000	0.255089
664.000000	0.275993
665.000000	0.286023
666.000000	0.395003
667.000000	0.512534
668.000000	0.428957
669.000000	0.338567
670.000000	0.266820
671.000000	0.273820
672.000000	0.315700
673.000000	0.345970
674.000000	0.312678
675.000000	0.339774
676.000000	0.360104
677.000000	0.395308
678.000000	0.341263
679.000000	0.329101
680.000000	0.289658
681.000000	0.282798
682.000000	0.285963
683.000000	0.347071
684.000000	0.383523
685.000000	0.447137
686.000000	0.456038
687.000000	0.357848
688.000000	0.270309
689.000000	0.291449
690.000000	0.278795
691.000000	0.309008
692.000000	0.275204
693.000000	0.253699
694.000000	0.270928
695.000000	0.279957
696.000000	0.292364
697.000000	0.318047
698.000000	0.338125
699.000000	0.330834
700.000000	0.386381
701.000000	0.316201
702.000000	0.298766
703.000000	0.238453
704.000000	0.228088
705.000000	0.202315
706.000000	0.206504
707.000000	0.197796
708.000000	0.190319
709.000000	0.181822
710.000000	0.174620
711.000000	0.157988
712.000000	0.164385
713.000000	0.190467
714.000000	0.189200
715.000000	0.161681
716.000000	0.178151
717.000000	0.196753
718.000000	0.170151
719.000000	0.150778
720.000000	0.157079
721.000000	0.210174
722.000000	0.230721
723.000000	0.237073
724.000000	0.198173
725.000000	0.190642
