#LICA Lamps Spectra Database
#Website 1: https://guaix.fis.ucm.es/lamps_spectra
#Website 2: http://carlostapia.es/lamparas/lamps.html
#Latest update: 2017/06/28
#Tester: Carlos Eugenio Tapia Ayuga
#Correct for Electrical Dark: Yes (JAZA2310)
#Correct for Detector Non-linearity: Yes (JAZA2310)
#Correct for Flux: Yes
#Start wavelength (nm): 300
#End wavelength (nm): 900
#Steps (nm):	1
#Locus: D65 sRGB Gamma 1 CIE1931
#XYZ coordinates: 0.6386	0.4573	0.0065
#xyY coordinates: 0.5792	0.4149	0.4573
#sRGB: 255	45	0
#CCT Lindbloom (K):	---
#CCT McCamy (K):	1698
#CCT Hernández-Andrés (K):	1151
#Melatonin: 0.050
#Chlorophyll a: 0.424
#Chlorophyll b: 0.418
#Beta Carotene: 0.424
#Manufacturer: Ignialight
#Luminance manufacturer: Unknown
#Other data: Áger streetlight.
#Begin Processed Spectral Data
W	S
475.000000	0.000936
476.000000	0.001215
477.000000	0.001532
478.000000	0.001297
479.000000	0.001504
480.000000	0.001570
481.000000	0.001300
482.000000	0.002021
483.000000	0.001515
484.000000	0.002066
485.000000	0.002306
486.000000	0.002363
487.000000	0.002366
488.000000	0.002850
489.000000	0.003044
490.000000	0.003406
491.000000	0.003797
492.000000	0.004319
493.000000	0.004928
494.000000	0.005590
495.000000	0.006317
496.000000	0.007100
497.000000	0.008023
498.000000	0.009275
499.000000	0.010075
500.000000	0.011683
501.000000	0.013036
502.000000	0.014390
503.000000	0.016387
504.000000	0.018507
505.000000	0.020094
506.000000	0.022245
507.000000	0.024824
508.000000	0.027132
509.000000	0.030073
510.000000	0.032676
511.000000	0.036007
512.000000	0.038658
513.000000	0.041810
514.000000	0.045569
515.000000	0.048474
516.000000	0.051682
517.000000	0.055478
518.000000	0.058569
519.000000	0.061540
520.000000	0.065700
521.000000	0.069131
522.000000	0.073249
523.000000	0.077150
524.000000	0.080875
525.000000	0.084829
526.000000	0.089193
527.000000	0.093156
528.000000	0.097128
529.000000	0.101456
530.000000	0.106233
531.000000	0.109541
532.000000	0.113797
533.000000	0.116985
534.000000	0.122051
535.000000	0.127576
536.000000	0.130995
537.000000	0.136059
538.000000	0.140492
539.000000	0.146146
540.000000	0.151403
541.000000	0.158989
542.000000	0.163341
543.000000	0.170237
544.000000	0.174733
545.000000	0.181311
546.000000	0.187132
547.000000	0.195102
548.000000	0.203178
549.000000	0.209072
550.000000	0.217532
551.000000	0.227066
552.000000	0.235897
553.000000	0.244582
554.000000	0.253987
555.000000	0.264228
556.000000	0.276845
557.000000	0.288476
558.000000	0.300922
559.000000	0.311762
560.000000	0.325190
561.000000	0.339073
562.000000	0.352270
563.000000	0.364901
564.000000	0.378595
565.000000	0.393472
566.000000	0.408828
567.000000	0.426184
568.000000	0.440612
569.000000	0.457355
570.000000	0.470200
571.000000	0.488347
572.000000	0.506466
573.000000	0.522103
574.000000	0.539040
575.000000	0.556115
576.000000	0.572385
577.000000	0.592488
578.000000	0.609970
579.000000	0.627067
580.000000	0.643998
581.000000	0.662810
582.000000	0.682383
583.000000	0.702623
584.000000	0.720957
585.000000	0.742445
586.000000	0.760505
587.000000	0.775105
588.000000	0.789962
589.000000	0.800229
590.000000	0.817658
591.000000	0.832727
592.000000	0.845326
593.000000	0.858089
594.000000	0.868306
595.000000	0.879920
596.000000	0.890571
597.000000	0.896003
598.000000	0.908993
599.000000	0.920741
600.000000	0.929907
601.000000	0.937368
602.000000	0.944549
603.000000	0.956537
604.000000	0.958546
605.000000	0.956035
606.000000	0.958232
607.000000	0.956084
608.000000	0.955125
609.000000	0.953323
610.000000	0.952925
611.000000	0.953107
612.000000	0.949391
613.000000	0.949616
614.000000	0.950175
615.000000	0.953335
616.000000	0.951185
617.000000	0.949301
618.000000	0.954474
619.000000	0.950123
620.000000	0.950182
621.000000	0.935324
622.000000	0.928116
623.000000	0.924552
624.000000	0.915732
625.000000	0.910261
626.000000	0.903153
627.000000	0.892509
628.000000	0.886138
629.000000	0.871540
630.000000	0.857986
631.000000	0.849389
632.000000	0.838576
633.000000	0.826397
634.000000	0.819554
635.000000	0.807251
636.000000	0.794147
637.000000	0.784600
638.000000	0.769733
639.000000	0.758525
640.000000	0.749370
641.000000	0.736298
642.000000	0.726170
643.000000	0.712074
644.000000	0.702823
645.000000	0.686054
646.000000	0.677561
647.000000	0.667641
648.000000	0.657959
649.000000	0.648532
650.000000	0.633301
651.000000	0.620608
652.000000	0.610952
653.000000	0.594166
654.000000	0.584869
655.000000	0.573121
656.000000	0.562807
657.000000	0.550281
658.000000	0.540950
659.000000	0.529767
660.000000	0.517049
661.000000	0.512299
662.000000	0.500284
663.000000	0.488545
664.000000	0.477723
665.000000	0.471223
666.000000	0.458980
667.000000	0.448680
668.000000	0.439555
669.000000	0.430434
670.000000	0.424014
671.000000	0.417074
672.000000	0.406087
673.000000	0.399821
674.000000	0.388644
675.000000	0.380166
676.000000	0.375007
677.000000	0.366197
678.000000	0.357276
679.000000	0.349428
680.000000	0.343761
681.000000	0.336868
682.000000	0.329023
683.000000	0.321597
684.000000	0.313061
685.000000	0.308130
686.000000	0.301793
687.000000	0.294655
688.000000	0.286879
689.000000	0.280047
690.000000	0.272914
691.000000	0.269306
692.000000	0.264417
693.000000	0.257669
694.000000	0.251223
695.000000	0.246922
696.000000	0.239720
697.000000	0.232533
698.000000	0.227329
699.000000	0.222073
700.000000	0.218308
701.000000	0.215079
702.000000	0.208560
703.000000	0.205589
704.000000	0.199149
705.000000	0.193542
706.000000	0.186657
707.000000	0.181778
708.000000	0.177482
709.000000	0.174002
710.000000	0.169634
711.000000	0.166702
712.000000	0.161238
713.000000	0.157323
714.000000	0.153589
715.000000	0.149298
716.000000	0.144545
717.000000	0.140649
718.000000	0.138710
719.000000	0.134230
720.000000	0.130073
721.000000	0.129150
722.000000	0.124114
723.000000	0.122310
724.000000	0.117849
725.000000	0.114177
