#LICA Lamps Spectra Database
#Website 1: https://guaix.fis.ucm.es/lamps_spectra
#Website 2: http://carlostapia.es/lamparas/lamps.html
#Latest update: 2018/04/18
#Tester: Carlos Eugenio Tapia Ayuga
#Correct for Electrical Dark: Yes (JAZA2310)
#Correct for Detector Non-linearity: Yes (JAZA2310)
#Correct for Flux: Yes
#Start wavelength (nm): 300
#End wavelength (nm): 900
#Steps (nm):	1
#Locus: D65 sRGB Gamma 1 CIE1931
#XYZ coordinates: 0.3440	0.3275	0.5018
#xyY coordinates: 0.2932	0.2792	0.3275
#sRGB: 92	77	123
#CCT Lindbloom (K):	9086
#CCT McCamy (K):	9000
#CCT Hernández-Andrés (K):	9041
#Melathonin: 0.983
#Chlorophil a: 0.120
#Chlorophil b: 1.481
#Beta Carotene: 0.120
#Manufacturer: Unknown
#Luminance manufacturer: Unknown
#Other data:
#Begin Processed Spectral Data
W	S
475.000000	0.492234
476.000000	0.455138
477.000000	0.422001
478.000000	0.390752
479.000000	0.366562
480.000000	0.345035
481.000000	0.328346
482.000000	0.305201
483.000000	0.294528
484.000000	0.273198
485.000000	0.273805
486.000000	0.260457
487.000000	0.249932
488.000000	0.247038
489.000000	0.240488
490.000000	0.232008
491.000000	0.232477
492.000000	0.231628
493.000000	0.227349
494.000000	0.227628
495.000000	0.230803
496.000000	0.235911
497.000000	0.246519
498.000000	0.255631
499.000000	0.262834
500.000000	0.269459
501.000000	0.279903
502.000000	0.292509
503.000000	0.306138
504.000000	0.316709
505.000000	0.328276
506.000000	0.343311
507.000000	0.351550
508.000000	0.367775
509.000000	0.383523
510.000000	0.399292
511.000000	0.414737
512.000000	0.432815
513.000000	0.445188
514.000000	0.460419
515.000000	0.473402
516.000000	0.484766
517.000000	0.494539
518.000000	0.510483
519.000000	0.521319
520.000000	0.532061
521.000000	0.540819
522.000000	0.551906
523.000000	0.568675
524.000000	0.584105
525.000000	0.586060
526.000000	0.598858
527.000000	0.610163
528.000000	0.614610
529.000000	0.632051
530.000000	0.636090
531.000000	0.634658
532.000000	0.642849
533.000000	0.644479
534.000000	0.655115
535.000000	0.659618
536.000000	0.660299
537.000000	0.673309
538.000000	0.674498
539.000000	0.675972
540.000000	0.677911
541.000000	0.684377
542.000000	0.682700
543.000000	0.700865
544.000000	0.694626
545.000000	0.700443
546.000000	0.694726
547.000000	0.703703
548.000000	0.699003
549.000000	0.704778
550.000000	0.706663
551.000000	0.710810
552.000000	0.715604
553.000000	0.718483
554.000000	0.709356
555.000000	0.713337
556.000000	0.720985
557.000000	0.721827
558.000000	0.726668
559.000000	0.730472
560.000000	0.723674
561.000000	0.728926
562.000000	0.724394
563.000000	0.717056
564.000000	0.714324
565.000000	0.714879
566.000000	0.717567
567.000000	0.716058
568.000000	0.705716
569.000000	0.707345
570.000000	0.699501
571.000000	0.705014
572.000000	0.712524
573.000000	0.700503
574.000000	0.693653
575.000000	0.688874
576.000000	0.686349
577.000000	0.691424
578.000000	0.690114
579.000000	0.679804
580.000000	0.683698
581.000000	0.676815
582.000000	0.673182
583.000000	0.676066
584.000000	0.672769
585.000000	0.669718
586.000000	0.663688
587.000000	0.661008
588.000000	0.654201
589.000000	0.647748
590.000000	0.643054
591.000000	0.643467
592.000000	0.645289
593.000000	0.627224
594.000000	0.621709
595.000000	0.615325
596.000000	0.612857
597.000000	0.606244
598.000000	0.600257
599.000000	0.590882
600.000000	0.582556
601.000000	0.585782
602.000000	0.582046
603.000000	0.577229
604.000000	0.572248
605.000000	0.559110
606.000000	0.545085
607.000000	0.539560
608.000000	0.532718
609.000000	0.526405
610.000000	0.515637
611.000000	0.517628
612.000000	0.506963
613.000000	0.502821
614.000000	0.493462
615.000000	0.500887
616.000000	0.486364
617.000000	0.482354
618.000000	0.476894
619.000000	0.469507
620.000000	0.465345
621.000000	0.452313
622.000000	0.444880
623.000000	0.440284
624.000000	0.432378
625.000000	0.428004
626.000000	0.419552
627.000000	0.413975
628.000000	0.411755
629.000000	0.402471
630.000000	0.385608
631.000000	0.386713
632.000000	0.383444
633.000000	0.371902
634.000000	0.369861
635.000000	0.366378
636.000000	0.351867
637.000000	0.351548
638.000000	0.340194
639.000000	0.333156
640.000000	0.331097
641.000000	0.321883
642.000000	0.318777
643.000000	0.312835
644.000000	0.302896
645.000000	0.304018
646.000000	0.294453
647.000000	0.288375
648.000000	0.286149
649.000000	0.279237
650.000000	0.272970
651.000000	0.265225
652.000000	0.256262
653.000000	0.258839
654.000000	0.253384
655.000000	0.241133
656.000000	0.233534
657.000000	0.231123
658.000000	0.233702
659.000000	0.224863
660.000000	0.221507
661.000000	0.218460
662.000000	0.207636
663.000000	0.203952
664.000000	0.199750
665.000000	0.197052
666.000000	0.190680
667.000000	0.190622
668.000000	0.185738
669.000000	0.182755
670.000000	0.174310
671.000000	0.169933
672.000000	0.167991
673.000000	0.170366
674.000000	0.163155
675.000000	0.153572
676.000000	0.154070
677.000000	0.150627
678.000000	0.142124
679.000000	0.144804
680.000000	0.134792
681.000000	0.135774
682.000000	0.130050
683.000000	0.131074
684.000000	0.128122
685.000000	0.130510
686.000000	0.120729
687.000000	0.117876
688.000000	0.115001
689.000000	0.110988
690.000000	0.106947
691.000000	0.110111
692.000000	0.103238
693.000000	0.101077
694.000000	0.104908
695.000000	0.094446
696.000000	0.095827
697.000000	0.089896
698.000000	0.096045
699.000000	0.086507
700.000000	0.091185
701.000000	0.086026
702.000000	0.080841
703.000000	0.080625
704.000000	0.079710
705.000000	0.082400
706.000000	0.078876
707.000000	0.071958
708.000000	0.074903
709.000000	0.069619
710.000000	0.071677
711.000000	0.071254
712.000000	0.069357
713.000000	0.061176
714.000000	0.063382
715.000000	0.059028
716.000000	0.056186
717.000000	0.054992
718.000000	0.057260
719.000000	0.053182
720.000000	0.053746
721.000000	0.050966
722.000000	0.051213
723.000000	0.051087
724.000000	0.049711
725.000000	0.050087
