#LICA Lamps Spectra Database
#Website 1: https://guaix.fis.ucm.es/lamps_spectra
#Website 2: http://carlostapia.es/lamparas/lamps.html
#Latest update: 2017/12/15
#Tester: Carlos Eugenio Tapia Ayuga
#Correct for Electrical Dark: Yes (JAZA2310)
#Correct for Detector Non-linearity: Yes (JAZA2310)
#Correct for Flux: Yes
#Start wavelength (nm): 300
#End wavelength (nm): 900
#Steps (nm):	1
#Locus: D65 sRGB Gamma 1 CIE1931
#XYZ coordinates: 0.1460	0.1398	0.0717
#xyY coordinates: 0.4085	0.3911	0.1398
#sRGB: 57	32	14
#CCT Lindbloom (K):	3436
#CCT McCamy (K):	3445
#CCT Hernández-Andrés (K):	3426
#Melatonin: 0.452
#Chlorophyll a: 0.151
#Chlorophyll b: 0.685
#Beta Carotene: 0.153
#Manufacturer: Unknown
#Luminance manufacturer: Unknown
#Other data:
#Begin Processed Spectral Data
W	S
475.000000	0.119569
476.000000	0.113465
477.000000	0.097647
478.000000	0.093203
479.000000	0.101291
480.000000	0.091305
481.000000	0.082799
482.000000	0.096780
483.000000	0.101488
484.000000	0.100179
485.000000	0.095628
486.000000	0.102150
487.000000	0.099568
488.000000	0.098046
489.000000	0.089365
490.000000	0.106057
491.000000	0.105214
492.000000	0.116351
493.000000	0.105910
494.000000	0.101719
495.000000	0.098839
496.000000	0.125716
497.000000	0.188692
498.000000	0.405973
499.000000	0.353426
500.000000	0.247823
501.000000	0.184557
502.000000	0.126594
503.000000	0.113194
504.000000	0.114685
505.000000	0.091774
506.000000	0.098374
507.000000	0.097290
508.000000	0.108812
509.000000	0.106149
510.000000	0.110435
511.000000	0.115240
512.000000	0.117880
513.000000	0.111837
514.000000	0.109467
515.000000	0.179818
516.000000	0.159323
517.000000	0.132685
518.000000	0.130171
519.000000	0.130267
520.000000	0.134691
521.000000	0.138585
522.000000	0.142502
523.000000	0.143186
524.000000	0.137107
525.000000	0.131313
526.000000	0.124634
527.000000	0.126451
528.000000	0.140598
529.000000	0.137849
530.000000	0.143842
531.000000	0.172085
532.000000	0.208152
533.000000	0.310048
534.000000	1.032043
535.000000	4.157961
536.000000	4.240341
537.000000	3.159233
538.000000	2.584521
539.000000	1.692236
540.000000	1.038180
541.000000	0.654761
542.000000	0.381816
543.000000	0.241115
544.000000	0.171399
545.000000	0.205725
546.000000	0.919769
547.000000	0.553616
548.000000	0.362586
549.000000	0.265158
550.000000	0.163684
551.000000	0.134097
552.000000	0.135336
553.000000	0.164699
554.000000	0.143205
555.000000	0.136461
556.000000	0.125741
557.000000	0.113679
558.000000	0.131606
559.000000	0.117579
560.000000	0.120865
561.000000	0.112732
562.000000	0.119847
563.000000	0.122194
564.000000	0.123110
565.000000	0.138924
566.000000	0.177658
567.000000	0.287132
568.000000	1.001969
569.000000	1.720750
570.000000	1.013906
571.000000	0.708471
572.000000	0.465063
573.000000	0.251523
574.000000	0.180062
575.000000	0.169604
576.000000	0.219377
577.000000	0.333285
578.000000	0.270207
579.000000	0.399566
580.000000	0.300757
581.000000	0.245899
582.000000	0.247936
583.000000	0.241130
584.000000	0.264357
585.000000	0.337569
586.000000	0.477794
587.000000	0.869792
588.000000	2.521256
589.000000	2.886716
590.000000	4.331784
591.000000	4.741577
592.000000	3.994989
593.000000	3.293272
594.000000	2.643206
595.000000	2.041059
596.000000	1.652011
597.000000	1.379243
598.000000	1.171661
599.000000	1.008283
600.000000	0.916626
601.000000	0.811722
602.000000	0.722755
603.000000	0.664328
604.000000	0.606018
605.000000	0.555493
606.000000	0.502065
607.000000	0.457186
608.000000	0.430738
609.000000	0.391555
610.000000	0.473946
611.000000	0.446679
612.000000	0.374988
613.000000	0.349931
614.000000	0.325791
615.000000	0.429001
616.000000	0.637810
617.000000	0.447637
618.000000	0.382312
619.000000	0.323680
620.000000	0.285354
621.000000	0.251321
622.000000	0.223261
623.000000	0.228131
624.000000	0.213887
625.000000	0.227154
626.000000	0.223391
627.000000	0.216112
628.000000	0.200319
629.000000	0.203195
630.000000	0.185262
631.000000	0.189392
632.000000	0.206028
633.000000	0.176679
634.000000	0.189608
635.000000	0.178659
636.000000	0.168810
637.000000	0.161594
638.000000	0.154023
639.000000	0.164925
640.000000	0.169093
641.000000	0.150624
642.000000	0.166961
643.000000	0.166891
644.000000	0.149184
645.000000	0.163652
646.000000	0.161712
647.000000	0.139919
648.000000	0.138248
649.000000	0.148592
650.000000	0.130890
651.000000	0.148800
652.000000	0.135916
653.000000	0.130555
654.000000	0.179082
655.000000	0.385927
656.000000	0.294226
657.000000	0.239781
658.000000	0.233224
659.000000	0.170483
660.000000	0.126339
661.000000	0.113446
662.000000	0.127378
663.000000	0.110742
664.000000	0.122680
665.000000	0.121948
666.000000	0.119839
667.000000	0.124655
668.000000	0.115849
669.000000	0.136111
670.000000	0.482082
671.000000	1.024924
672.000000	0.552543
673.000000	0.437285
674.000000	0.347028
675.000000	0.181942
676.000000	0.156397
677.000000	0.118470
678.000000	0.129937
679.000000	0.127178
680.000000	0.134919
681.000000	0.102864
682.000000	0.077405
683.000000	0.091729
684.000000	0.088315
685.000000	0.150122
686.000000	0.136987
687.000000	0.094151
688.000000	0.103669
689.000000	0.087314
690.000000	0.111432
691.000000	0.106778
692.000000	0.112180
693.000000	0.083635
694.000000	0.079776
695.000000	0.062553
696.000000	0.092984
697.000000	0.089830
698.000000	0.084296
699.000000	0.065246
700.000000	0.072453
701.000000	0.075228
702.000000	0.068431
703.000000	0.087351
704.000000	0.071846
705.000000	0.068441
706.000000	0.049104
707.000000	0.074612
708.000000	0.078457
709.000000	0.079238
710.000000	0.087943
711.000000	0.061540
712.000000	0.092553
713.000000	0.086164
714.000000	0.060294
715.000000	0.079336
716.000000	0.075296
717.000000	0.067762
718.000000	0.085548
719.000000	0.065397
720.000000	0.083944
721.000000	0.053605
722.000000	0.063612
723.000000	0.043023
724.000000	0.083699
725.000000	0.059900
