#LICA Lamps Spectra Database
#Website 1: https://guaix.fis.ucm.es/lamps_spectra
#Website 2: http://carlostapia.es/lamparas/lamps.html
#Latest update: 2017/12/15
#Tester: Carlos Eugenio Tapia Ayuga
#Correct for Electrical Dark: Yes (JAZA2310)
#Correct for Detector Non-linearity: Yes (JAZA2310)
#Correct for Flux: Yes
#Start wavelength (nm): 300
#End wavelength (nm): 900
#Steps (nm):	1
#Locus: D65 sRGB Gamma 1 CIE1931
#XYZ coordinates: 0.2287	0.2375	0.1281
#xyY coordinates: 0.3848	0.3997	0.2375
#sRGB: 80	58	25
#CCT Lindbloom (K):	4044
#CCT McCamy (K):	4045
#CCT Hernández-Andrés (K):	4024
#Melatonin: 0.527
#Chlorophyll a: 0.288
#Chlorophyll b: 0.578
#Beta Carotene: 0.290
#Manufacturer: Unknown
#Luminance manufacturer: Unknown
#Other data:
#Begin Processed Spectral Data
W	S
475.000000	0.230363
476.000000	0.204739
477.000000	0.238933
478.000000	0.260852
479.000000	0.281316
480.000000	0.275484
481.000000	0.279554
482.000000	0.285288
483.000000	0.279215
484.000000	0.261523
485.000000	0.231839
486.000000	0.216303
487.000000	0.205711
488.000000	0.259088
489.000000	0.292647
490.000000	0.278329
491.000000	0.272483
492.000000	0.283642
493.000000	0.237803
494.000000	0.235343
495.000000	0.218279
496.000000	0.244998
497.000000	0.238659
498.000000	0.261121
499.000000	0.286446
500.000000	0.274951
501.000000	0.275499
502.000000	0.276605
503.000000	0.291154
504.000000	0.328101
505.000000	0.333751
506.000000	0.303329
507.000000	0.296279
508.000000	0.281412
509.000000	0.241830
510.000000	0.230766
511.000000	0.272670
512.000000	0.332172
513.000000	0.314319
514.000000	0.287929
515.000000	0.284537
516.000000	0.300182
517.000000	0.298215
518.000000	0.297246
519.000000	0.303921
520.000000	0.282003
521.000000	0.269332
522.000000	0.278142
523.000000	0.295186
524.000000	0.278476
525.000000	0.257019
526.000000	0.288239
527.000000	0.292829
528.000000	0.301875
529.000000	0.276290
530.000000	0.317202
531.000000	0.338118
532.000000	0.376856
533.000000	0.443528
534.000000	0.810187
535.000000	1.433449
536.000000	2.136317
537.000000	2.424806
538.000000	2.389639
539.000000	2.086989
540.000000	1.611486
541.000000	1.060735
542.000000	0.721671
543.000000	0.489979
544.000000	0.343184
545.000000	0.393501
546.000000	1.042203
547.000000	0.886412
548.000000	0.628968
549.000000	0.370891
550.000000	0.273232
551.000000	0.246410
552.000000	0.227624
553.000000	0.249059
554.000000	0.250381
555.000000	0.292419
556.000000	0.264324
557.000000	0.262648
558.000000	0.231241
559.000000	0.220678
560.000000	0.234565
561.000000	0.248199
562.000000	0.236442
563.000000	0.239068
564.000000	0.321494
565.000000	0.346525
566.000000	0.331112
567.000000	0.334610
568.000000	0.413098
569.000000	0.615538
570.000000	0.565643
571.000000	0.453603
572.000000	0.370853
573.000000	0.299759
574.000000	0.298917
575.000000	0.319526
576.000000	0.375064
577.000000	0.484733
578.000000	0.434239
579.000000	0.499732
580.000000	0.438395
581.000000	0.392354
582.000000	0.344074
583.000000	0.322664
584.000000	0.330320
585.000000	0.356229
586.000000	0.413313
587.000000	0.558627
588.000000	0.968598
589.000000	0.779603
590.000000	0.722237
591.000000	1.135321
592.000000	1.391961
593.000000	1.535278
594.000000	1.496557
595.000000	1.380845
596.000000	1.270898
597.000000	1.188330
598.000000	1.118653
599.000000	1.072472
600.000000	0.947734
601.000000	0.913788
602.000000	0.840676
603.000000	0.794044
604.000000	0.708761
605.000000	0.659989
606.000000	0.635975
607.000000	0.599958
608.000000	0.597758
609.000000	0.641280
610.000000	0.572622
611.000000	0.548013
612.000000	0.515512
613.000000	0.494540
614.000000	0.468113
615.000000	0.473588
616.000000	0.539671
617.000000	0.581822
618.000000	0.488253
619.000000	0.435651
620.000000	0.391916
621.000000	0.370115
622.000000	0.351826
623.000000	0.358901
624.000000	0.347390
625.000000	0.363401
626.000000	0.520327
627.000000	0.428128
628.000000	0.394009
629.000000	0.344811
630.000000	0.296931
631.000000	0.309747
632.000000	0.306802
633.000000	0.306106
634.000000	0.315714
635.000000	0.298057
636.000000	0.291510
637.000000	0.285218
638.000000	0.301603
639.000000	0.310573
640.000000	0.290715
641.000000	0.280272
642.000000	0.316158
643.000000	0.314642
644.000000	0.290955
645.000000	0.275908
646.000000	0.268296
647.000000	0.257307
648.000000	0.261239
649.000000	0.271455
650.000000	0.258247
651.000000	0.240407
652.000000	0.242533
653.000000	0.239243
654.000000	0.247610
655.000000	0.314863
656.000000	0.350601
657.000000	0.326640
658.000000	0.384008
659.000000	0.317394
660.000000	0.275624
661.000000	0.242163
662.000000	0.226939
663.000000	0.224393
664.000000	0.230621
665.000000	0.249661
666.000000	0.270540
667.000000	0.317344
668.000000	0.278388
669.000000	0.269048
670.000000	0.260869
671.000000	0.261739
672.000000	0.264740
673.000000	0.247231
674.000000	0.247239
675.000000	0.252316
676.000000	0.244210
677.000000	0.253068
678.000000	0.237939
679.000000	0.227515
680.000000	0.219038
681.000000	0.197763
682.000000	0.227264
683.000000	0.261691
684.000000	0.300282
685.000000	0.293058
686.000000	0.295888
687.000000	0.232071
688.000000	0.210038
689.000000	0.199808
690.000000	0.191576
691.000000	0.183685
692.000000	0.171728
693.000000	0.176052
694.000000	0.170721
695.000000	0.171684
696.000000	0.206995
697.000000	0.182660
698.000000	0.165741
699.000000	0.176882
700.000000	0.195720
701.000000	0.165493
702.000000	0.163222
703.000000	0.150852
704.000000	0.150357
705.000000	0.129607
706.000000	0.137325
707.000000	0.132992
708.000000	0.121384
709.000000	0.117623
710.000000	0.127169
711.000000	0.105351
712.000000	0.128088
713.000000	0.132059
714.000000	0.108587
715.000000	0.101732
716.000000	0.115286
717.000000	0.107539
718.000000	0.098574
719.000000	0.108099
720.000000	0.101955
721.000000	0.130800
722.000000	0.106009
723.000000	0.112191
724.000000	0.121400
725.000000	0.124841
