#LICA Lamps Spectra Database
#Website 1: https://guaix.fis.ucm.es/lamps_spectra
#Website 2: http://carlostapia.es/lamparas/lamps.html
#Latest update: 2018/01/15
#Tester: Carlos Eugenio Tapia Ayuga
#Correct for Electrical Dark: Yes (JAZA2310)
#Correct for Detector Non-linearity: Yes (JAZA2310)
#Correct for Flux: Yes
#Start wavelength (nm): 300
#End wavelength (nm): 900
#Steps (nm):	1
#Locus: D65 sRGB Gamma 1 CIE1931
#XYZ coordinates: 0.0749	0.0443	0.0001
#xyY coordinates: 0.6274	0.3717	0.0443
#sRGB: 44	3	0
#CCT Lindbloom (K):	---
#CCT McCamy (K):	1780
#CCT Hernández-Andrés (K):	319
#Melatonin: 0.021
#Chlorophyll a: 2.621
#Chlorophyll b: 0.713
#Beta Carotene: 2.607
#Manufacturer: Photron
#Luminance manufacturer: Unknown
#Other data: Calibration lamp tested in laboratory
#Begin Processed Spectral Data
W	S
475.000000	0.000017
476.000000	0.000000
477.000000	0.000000
478.000000	0.000000
479.000000	0.000745
480.000000	0.000000
481.000000	0.000000
482.000000	0.000294
483.000000	0.001936
484.000000	0.002923
485.000000	0.000001
486.000000	0.000000
487.000000	0.000079
488.000000	0.000000
489.000000	0.000844
490.000000	0.000000
491.000000	0.000000
492.000000	0.000000
493.000000	0.000000
494.000000	0.000000
495.000000	0.000000
496.000000	0.000000
497.000000	0.000000
498.000000	0.000000
499.000000	0.000000
500.000000	0.000000
501.000000	0.000918
502.000000	0.002689
503.000000	0.004676
504.000000	0.027048
505.000000	0.006793
506.000000	0.000129
507.000000	0.000000
508.000000	0.013823
509.000000	0.009959
510.000000	0.000093
511.000000	0.003595
512.000000	0.022926
513.000000	0.006676
514.000000	0.002064
515.000000	0.011894
516.000000	0.007102
517.000000	0.002600
518.000000	0.000701
519.000000	0.003822
520.000000	0.011153
521.000000	0.015189
522.000000	0.007545
523.000000	0.004655
524.000000	0.003008
525.000000	0.000000
526.000000	0.000000
527.000000	0.000000
528.000000	0.000000
529.000000	0.003104
530.000000	0.004446
531.000000	0.003717
532.000000	0.001064
533.000000	0.053902
534.000000	0.096382
535.000000	0.074144
536.000000	0.009635
537.000000	0.003540
538.000000	0.001404
539.000000	0.006266
540.000000	0.100809
541.000000	0.080128
542.000000	0.010194
543.000000	0.002995
544.000000	0.000000
545.000000	0.003320
546.000000	0.000000
547.000000	0.000000
548.000000	0.000000
549.000000	0.000000
550.000000	0.002210
551.000000	0.000000
552.000000	0.000001
553.000000	0.000131
554.000000	0.000565
555.000000	0.000000
556.000000	0.003590
557.000000	0.007168
558.000000	0.001632
559.000000	0.000526
560.000000	0.000000
561.000000	0.000000
562.000000	0.000000
563.000000	0.000000
564.000000	0.001192
565.000000	0.009322
566.000000	0.027812
567.000000	0.007943
568.000000	0.002768
569.000000	0.012648
570.000000	0.004972
571.000000	0.002434
572.000000	0.009395
573.000000	0.003781
574.000000	0.006229
575.000000	0.045879
576.000000	0.133685
577.000000	0.210454
578.000000	0.048527
579.000000	0.015418
580.000000	0.030026
581.000000	0.048422
582.000000	0.132051
583.000000	0.079406
584.000000	0.150994
585.000000	6.592788
586.000000	6.247975
587.000000	1.165868
588.000000	0.921114
589.000000	0.607645
590.000000	0.202081
591.000000	0.152639
592.000000	0.070589
593.000000	0.030587
594.000000	0.625262
595.000000	1.104277
596.000000	0.265386
597.000000	0.299311
598.000000	0.461726
599.000000	0.145938
600.000000	0.050079
601.000000	0.015664
602.000000	0.052683
603.000000	0.503391
604.000000	0.239705
605.000000	0.039945
606.000000	0.030712
607.000000	0.938202
608.000000	1.327939
609.000000	1.139754
610.000000	2.252265
611.000000	0.525873
612.000000	0.136479
613.000000	0.170420
614.000000	1.864560
615.000000	1.812736
616.000000	1.094450
617.000000	0.937460
618.000000	0.222605
619.000000	0.075072
620.000000	0.032886
621.000000	0.264678
622.000000	0.749629
623.000000	0.205708
624.000000	0.037888
625.000000	0.034136
626.000000	0.693951
627.000000	1.670849
628.000000	0.401867
629.000000	0.099625
630.000000	0.602980
631.000000	0.871036
632.000000	0.204632
633.000000	1.319929
634.000000	1.614417
635.000000	0.327133
636.000000	0.093993
637.000000	0.099931
638.000000	2.367510
639.000000	2.106693
640.000000	4.739802
641.000000	3.129483
642.000000	0.686683
643.000000	0.205662
644.000000	0.073616
645.000000	0.027041
646.000000	0.010175
647.000000	0.006355
648.000000	0.008897
649.000000	0.028770
650.000000	2.069119
651.000000	4.276962
652.000000	0.942146
653.000000	1.122459
654.000000	0.752238
655.000000	0.143113
656.000000	0.031495
657.000000	0.012519
658.000000	0.004168
659.000000	0.456582
660.000000	2.084682
661.000000	0.633297
662.000000	0.129797
663.000000	0.038307
664.000000	0.012613
665.000000	0.014207
666.000000	0.015676
667.000000	1.284636
668.000000	4.085930
669.000000	1.077267
670.000000	0.233314
671.000000	1.133288
672.000000	2.293090
673.000000	0.509107
674.000000	0.112495
675.000000	0.035908
676.000000	0.010265
677.000000	0.004799
678.000000	0.000000
679.000000	0.004427
680.000000	0.000000
681.000000	0.000000
682.000000	0.000002
683.000000	0.000397
684.000000	0.000000
685.000000	0.000857
686.000000	0.000000
687.000000	0.000008
688.000000	0.000000
689.000000	0.000001
690.000000	0.002889
691.000000	0.010604
692.000000	0.906605
693.000000	4.047439
694.000000	1.203282
695.000000	0.240644
696.000000	0.076540
697.000000	0.009465
698.000000	0.006000
699.000000	0.005755
700.000000	0.003628
701.000000	0.012113
702.000000	0.502072
703.000000	4.243499
704.000000	2.186009
705.000000	0.496081
706.000000	0.261381
707.000000	0.077026
708.000000	0.007584
709.000000	0.004728
710.000000	0.000000
711.000000	0.000352
712.000000	0.000004
713.000000	0.000000
714.000000	0.000000
715.000000	0.001126
716.000000	0.022763
717.000000	0.605323
718.000000	0.432162
719.000000	0.096207
720.000000	0.007070
721.000000	0.001913
722.000000	0.005352
723.000000	0.039992
724.000000	2.913739
725.000000	2.752453
